onset	duration	response_time	vS	vL	dS	dL	dDiff	choice	no_resp	k	SV_SS	SV_LL	SV_sum	SV_diff	SV_chosen	SV_unchosen	SV_chosen_minus_unchosen_abs
10.037	1.723	1.723	12.7	12.7	14	30	16	7	0	0.003855172	12.0496513036	11.3834457594	23.4330970629	0.666205544234	12.0496513036	11.3834457594	0.666205544234
22.063	1.817	1.816	0.14	19.23	30	42	12	8	0	0.003855172	0.125486803646	16.5502323253	16.675719129	16.4247455217	16.5502323253	0.125486803646	16.4247455217
34.103	2.699	2.696	21.49	26.86	30	42	12	8	0	0.003855172	19.2622243597	23.116965172	42.3791895318	3.85474081232	23.116965172	19.2622243597	3.85474081232
46.144	1.999	1.999	19.33	21.26	0	14	14	8	0	0.003855172	19.33	20.1713060405	39.5013060405	0.84130604049	20.1713060405	19.33	0.84130604049
58.202	2.685	2.685	5.6	6.16	14	42	28	8	0	0.003855172	5.31323207087	5.30158248175	10.6148145526	0.0116495891239	5.30158248175	5.31323207087	0.0116495891239
70.244	1.517	1.515	14.2	14.91	14	30	16	7	0	0.003855172	13.4728384654	13.3643445883	26.8371830538	0.108493877086	13.4728384654	13.3643445883	0.108493877086
82.285	1.65	1.649	7.44	7.51	0	30	30	7	0	0.003855172	7.44	6.73147068132	14.1714706813	0.708529318683	7.44	6.73147068132	0.708529318683
94.343	1.431	1.431	16.65	22.48	0	30	30	8	0	0.003855172	16.65	20.1495953284	36.7995953284	3.49959532836	20.1495953284	16.65	3.49959532836
106.384	1.414	1.414	16.9	17.74	0	14	14	8	0	0.003855172	16.9	16.8315601674	33.7315601674	0.0684398326298	16.8315601674	16.9	0.0684398326298
118.425	1.863	1.861	21.84	22.93	30	42	12	8	0	0.003855172	19.5759413688	19.7346244004	39.3105657692	0.158683031567	19.7346244004	19.5759413688	0.158683031567
130.467	1.283	1.282	18.9	21.74	30	42	12	8	0	0.003855172	16.9407184923	18.7104550573	35.6511735496	1.76973656508	18.7104550573	16.9407184923	1.76973656508
142.508	2.77	2.769	14.44	15.88	30	42	12	8	0	0.003855172	12.9430674618	13.6670665276	26.6101339894	0.723999065811	13.6670665276	12.9430674618	0.723999065811
154.549	1.323	1.32	11.41	11.52	30	42	12	7	0	0.003855172	10.2271744972	9.91464775807	20.1418222553	0.312526739106	10.2271744972	9.91464775807	0.312526739106
166.591	1.158	1.159	6.78	10.17	0	14	14	8	0	0.003855172	6.78	9.64920895728	16.4292089573	2.86920895728	9.64920895728	6.78	2.86920895728
178.632	1.237	1.237	14.95	20.18	0	14	14	8	0	0.003855172	14.95	19.146611284	34.096611284	4.19661128396	19.146611284	14.95	4.19661128396
190.673	2.084	2.083	5.23	6.54	0	30	30	8	0	0.003855172	5.23	5.86202639891	11.0920263989	0.63202639891	5.86202639891	5.23	0.63202639891
202.714	1.058	1.058	25.76	38.64	30	42	12	8	0	0.003855172	23.0895718709	33.2553810219	56.3449528928	10.1658091509	33.2553810219	23.0895718709	10.1658091509
214.756	1.304	1.305	6.69	6.76	0	14	14	7	0	0.003855172	6.69	6.4138301427	13.1038301427	0.276169857304	6.69	6.4138301427	0.276169857304
226.797	1.663	1.663	13.22	17.85	14	42	28	8	0	0.003855172	12.543022853	15.362540146	27.905562999	2.81951729295	15.362540146	12.543022853	2.81951729295
238.838	1.408	1.405	17.84	22.3	14	42	28	8	0	0.003855172	16.9264393115	19.1924171011	36.1188564126	2.26597778964	19.1924171011	16.9264393115	2.26597778964
250.879	1.333	1.332	15.29	22.94	0	30	30	8	0	0.003855172	15.29	20.5619091118	35.8519091118	5.27190911177	20.5619091118	15.29	5.27190911177
262.937	2.266	2.266	16.63	17.13	14	30	16	8	0	0.003855172	15.7784016676	15.3542067604	31.1326084281	0.424194907161	15.3542067604	15.7784016676	0.424194907161
274.979	2.856	2.857	11.51	13.24	14	42	28	8	0	0.003855172	10.9205894885	11.3949597497	22.3155492383	0.474370261207	11.3949597497	10.9205894885	0.474370261207
287.004	2.434	2.431	24.87	27.36	0	30	30	7	0	0.003855172	24.87	24.5237067698	49.3937067698	0.346293230249	24.87	24.5237067698	0.346293230249
299.061	1.166	1.166	13.44	20.16	14	30	16	8	0	0.003855172	12.7517569701	18.0700997251	30.8218566952	5.31834275499	18.0700997251	12.7517569701	5.31834275499
311.102	1.396	1.396	14.76	16.97	0	14	14	8	0	0.003855172	14.76	16.1009907576	30.8609907576	1.34099075763	16.1009907576	14.76	1.34099075763
323.144	2.469	2.467	8.66	9.96	14	30	16	7	0	0.003855172	8.21653388103	8.92748974513	17.1440236262	0.710955864101	8.21653388103	8.92748974513	0.710955864101
335.185	2.596	2.593	23.92	24.64	30	42	12	7	0	0.003855172	21.4403167373	21.206329927	42.6466466643	0.233986810304	21.4403167373	21.206329927	0.233986810304
347.226	1.68	1.68	19.55	20.14	14	42	28	7	0	0.003855172	18.548872676	17.3334206465	35.8822933225	1.2154520295	18.548872676	17.3334206465	1.2154520295
359.267	1.399	1.398	29.73	37.16	0	14	14	8	0	0.003855172	29.73	35.257089956	64.987089956	5.527089956	35.257089956	29.73	5.527089956
371.309	1.239	1.236	20.75	28.01	30	42	12	8	0	0.003855172	18.598936969	24.1067086548	42.7056456239	5.50777168581	24.1067086548	18.598936969	5.50777168581
383.35	1.739	1.739	22.33	23.45	0	30	30	7	0	0.003855172	22.33	21.0190396108	43.3490396108	1.31096038923	22.33	21.0190396108	1.31096038923
395.408	1.337	1.337	13.72	13.86	14	42	28	7	0	0.003855172	13.0174185736	11.9285605839	24.9459791576	1.0888579897	13.0174185736	11.9285605839	1.0888579897
407.449	1.81	1.808	18.09	18.63	0	14	14	7	0	0.003855172	18.09	17.6759845501	35.7659845501	0.414015449938	18.09	17.6759845501	0.414015449938
419.474	1.383	1.382	7.32	7.69	14	42	28	7	0	0.003855172	6.94515334978	6.61837163712	13.5635249869	0.326781712665	6.94515334978	6.61837163712	0.326781712665
431.532	1.46	1.461	14.36	14.79	0	30	30	7	0	0.003855172	14.36	13.2567844709	27.6167844709	1.10321552907	14.36	13.2567844709	1.10321552907
443.573	1.267	1.267	11.63	17.44	14	42	28	8	0	0.003855172	11.0344444615	15.0096750782	26.0441195397	3.97523061672	15.0096750782	11.0344444615	3.97523061672
455.614	1.548	1.546	21.2	24.38	0	30	30	8	0	0.003855172	21.2	21.8526305207	43.0526305207	0.652630520707	21.8526305207	21.2	0.652630520707
467.655	2.641	2.64	20.35	22.38	14	30	16	8	0	0.003855172	19.307905829	20.0599618972	39.3678677262	0.752056068214	20.0599618972	19.307905829	0.752056068214
479.698	1.317	1.317	18.25	18.43	14	30	16	7	0	0.003855172	17.3154438024	16.5194413657	33.8348851681	0.796002436661	17.3154438024	16.5194413657	0.796002436661
491.738	1.613	1.613	7.76	9.7	14	30	16	8	0	0.003855172	7.36262158392	8.69444282407	16.057064408	1.33182124015	8.69444282407	7.36262158392	1.33182124015
503.779	1.3	1.3	7.91	10.68	14	30	16	8	0	0.003855172	7.50494030011	9.5728504496	17.0777907497	2.06791014949	9.5728504496	7.50494030011	2.06791014949
