onset	duration	response_time	vS	vL	dS	dL	dDiff	choice	no_resp	k	SV_SS	SV_LL	SV_sum	SV_diff	SV_chosen	SV_unchosen	SV_chosen_minus_unchosen_abs
10.043	1.888	1.885	27.04	27.04	14	30	16	7	0	1.193348038	1.52709067912	0.734773800595	2.26186447972	0.792316878526	1.52709067912	0.734773800595	0.792316878526
22.084	2.172	2.172	0.22	22.29	14	30	16	8	0	1.193348038	0.012424554342	0.605699260919	0.618123815261	0.593274706577	0.605699260919	0.012424554342	0.593274706577
34.142	1.77	1.77	24.33	24.57	0	30	30	7	0	1.193348038	24.33	0.667655039963	24.99765504	23.66234496	24.33	0.667655039963	23.66234496
46.183	2.611	2.608	12.96	17.5	30	42	12	7	0	1.193348038	0.352169691409	0.342327632626	0.694497324035	0.00984205878365	0.352169691409	0.342327632626	0.00984205878365
58.208	2.97	2.967	17.65	19.42	14	30	16	7	0	1.193348038	0.996788109707	0.527711065368	1.52449917508	0.469077044339	0.996788109707	0.527711065368	0.469077044339
70.249	5.048	5.046	17.1	25.65	14	30	16	7	0	1.193348038	0.965726723852	0.697002514248	1.6627292381	0.268724209605	0.965726723852	0.697002514248	0.268724209605
82.29	4.189	4.188	17.2	25.8	14	42	28	7	0	1.193348038	0.971374248553	0.504688738385	1.47606298694	0.466685510168	0.971374248553	0.504688738385	0.466685510168
94.348	3.613	3.61	8.07	10.09	14	30	16	7	0	1.193348038	0.455755243362	0.274181495858	0.72993673922	0.181573747504	0.455755243362	0.274181495858	0.181573747504
106.39	2.192	2.193	7.45	8.57	0	14	14	7	0	1.193348038	7.45	0.483992866866	7.93399286687	6.96600713313	7.45	0.483992866866	6.96600713313
118.431	2.623	2.623	18.6	19.53	14	30	16	7	0	1.193348038	1.05043959437	0.530700159971	1.58113975434	0.519739434395	1.05043959437	0.530700159971	0.519739434395
130.472	3.541	3.541	22.74	30.7	14	42	28	7	0	1.193348038	1.28424711698	0.60054047552	1.8847875925	0.683706641462	1.28424711698	0.60054047552	0.683706641462
142.497	5.863	5.86	26.03	27.33	30	42	12	7	0	1.193348038	0.707328477422	0.534617954266	1.24194643169	0.172710523155	0.707328477422	0.534617954266	0.172710523155
154.522	2.603	2.603	22.58	30.48	0	14	14	7	0	1.193348038	22.58	1.72136552883	24.3013655288	20.8586344712	22.58	1.72136552883	20.8586344712
166.579	5.812	5.809	23.92	32.29	14	30	16	7	0	1.193348038	1.35088790845	0.87743513392	2.22832304237	0.473452774533	1.35088790845	0.87743513392	0.473452774533
178.603	3.972	3.969	21.08	21.71	14	42	28	7	0	1.193348038	1.19049820695	0.424681880246	1.61518008719	0.765816326702	1.19049820695	0.424681880246	0.765816326702
190.644	3.947	3.944	26.34	30.29	30	42	12	7	0	1.193348038	0.715752289485	0.592520228127	1.30827251761	0.123232061357	0.715752289485	0.592520228127	0.123232061357
202.686	2.254	2.254	20.59	20.8	14	42	28	7	0	1.193348038	1.16282533591	0.406880843349	1.56970617926	0.755944492564	1.16282533591	0.406880843349	0.755944492564
214.727	1.605	1.604	26.3	27.62	0	30	30	7	0	1.193348038	26.3	0.750534481229	27.0505344812	25.5494655188	26.3	0.750534481229	25.5494655188
226.768	1.539	1.539	6.37	7.01	0	30	30	7	0	1.193348038	6.37	0.190486846974	6.56048684697	6.17951315303	6.37	0.190486846974	6.17951315303
238.826	1.761	1.761	29.63	31.11	0	14	14	7	0	1.193348038	29.63	1.75694493445	31.3869449344	27.8730550656	29.63	1.75694493445	27.8730550656
250.884	1.879	1.878	12.76	14.04	14	42	28	7	0	1.193348038	0.720624151834	0.274644569261	0.995268721095	0.445979582573	0.720624151834	0.274644569261	0.445979582573
262.925	2.632	2.629	20.22	30.33	0	30	30	7	0	1.193348038	20.22	0.824174902812	21.0441749028	19.3958250972	20.22	0.824174902812	19.3958250972
274.966	1.66	1.66	9.17	9.45	0	30	30	7	0	1.193348038	9.17	0.256790399986	9.42679039999	8.91320960001	9.17	0.256790399986	8.91320960001
287.007	2.163	2.163	20.43	22.47	30	42	12	7	0	1.193348038	0.555156388541	0.439548680291	0.994705068832	0.11560770825	0.555156388541	0.439548680291	0.11560770825
299.048	1.938	1.937	10.6	10.92	30	42	12	7	0	1.193348038	0.288040025381	0.213612442758	0.501652468139	0.0744275826227	0.288040025381	0.213612442758	0.0744275826227
311.09	1.322	1.319	26.21	32.76	0	14	14	7	0	1.193348038	26.21	1.85012909201	28.060129092	24.359870908	26.21	1.85012909201	24.359870908
323.131	2.222	2.222	22.63	33.94	30	42	12	7	0	1.193348038	0.614938280601	0.663919991504	1.2788582721	0.0489817109024	0.614938280601	0.663919991504	0.0489817109024
335.189	1.82	1.819	19.31	21.24	0	14	14	7	0	1.193348038	19.31	1.19953424647	20.5095342465	18.1104657535	19.31	1.19953424647	18.1104657535
347.23	2.277	2.274	28.31	28.59	14	30	16	7	0	1.193348038	1.59881424282	0.77689286091	2.37570710373	0.821921381912	1.59881424282	0.77689286091	0.821921381912
359.255	2.049	2.049	19.56	22.49	14	30	16	7	0	1.193348038	1.10465583149	0.611133978379	1.71578980987	0.493521853115	1.10465583149	0.611133978379	0.493521853115
371.312	2.024	2.024	10.55	15.82	0	14	14	7	0	1.193348038	10.55	0.893438407681	11.4434384077	9.65656159232	10.55	0.893438407681	9.65656159232
383.337	1.577	1.574	10.86	13.58	0	30	30	7	0	1.193348038	10.86	0.369017315535	11.2290173155	10.4909826845	10.86	0.369017315535	10.4909826845
395.378	2.901	2.901	28.43	28.71	30	42	12	7	0	1.193348038	0.772545086942	0.561612933296	1.33415802024	0.210932153646	0.772545086942	0.561612933296	0.210932153646
407.436	2.979	2.979	25.47	25.72	0	14	14	7	0	1.193348038	25.47	1.45254335307	26.9225433531	24.0174566469	25.47	1.45254335307	24.0174566469
419.494	1.193	1.192	14.19	19.16	0	30	30	7	0	1.193348038	14.19	0.52064593267	14.7106459327	13.6693540673	14.19	0.52064593267	13.6693540673
431.518	2.627	2.624	6.22	7.15	14	42	28	7	0	1.193348038	0.351276036395	0.139865289901	0.491141326297	0.211410746494	0.351276036395	0.139865289901	0.211410746494
443.543	1.343	1.343	18.56	21.34	0	30	30	7	0	1.193348038	18.56	0.579884352984	19.139884353	17.980115647	18.56	0.579884352984	17.980115647
455.567	2.575	2.575	22.9	28.62	14	42	28	7	0	1.193348038	1.2932831565	0.559852391185	1.85313554769	0.733430765319	1.2932831565	0.559852391185	0.733430765319
467.592	1.848	1.845	11.42	11.76	14	30	16	7	0	1.193348038	0.644947320842	0.319561386649	0.964508707491	0.325385934193	0.644947320842	0.319561386649	0.325385934193
479.633	2.919	2.916	23.82	25.01	14	42	28	7	0	1.193348038	1.34524038375	0.48923509097	1.83447547472	0.856005292783	1.34524038375	0.48923509097	0.856005292783
491.674	2.051	2.051	15.13	15.58	0	14	14	7	0	1.193348038	15.13	0.879884348399	16.0098843484	14.2501156516	15.13	0.879884348399	14.2501156516
503.715	2.578	2.577	7.71	9.64	30	42	12	7	0	1.193348038	0.209508358084	0.188573621629	0.398081979713	0.0209347364546	0.209508358084	0.188573621629	0.0209347364546
