onset	duration	response_time	vS	vL	dS	dL	dDiff	choice	no_resp	k	SV_SS	SV_LL	SV_sum	SV_diff	SV_chosen	SV_unchosen	SV_chosen_minus_unchosen_abs
10.037	2.155	2.155	16.54	16.54	0	30	30	7	0	0.010124199	16.54	12.6867151385	29.2267151385	3.85328486154	16.54	12.6867151385	3.85328486154
22.078	2.004	2.001	0.18	22.91	0	14	14	8	0	0.010124199	0.18	20.0658857183	20.2458857183	19.8858857183	20.0658857183	0.18	19.8858857183
34.119	5.339	5.336	9.32	13.98	0	30	30	8	0	0.010124199	9.32	10.7231123117	20.0431123117	1.40311231171	10.7231123117	9.32	1.40311231171
46.16	4.023	4.023	16.89	19.42	0	14	14	7	0	0.010124199	16.89	17.0091445067	33.8991445067	0.119144506719	16.89	17.0091445067	0.119144506719
58.218	5.557	5.557	23.06	26.52	0	30	30	7	0	0.010124199	23.06	20.3416980334	43.4016980334	2.71830196663	23.06	20.3416980334	2.71830196663
82.284	2.914	2.914	22.7	24.97	30	42	12	7	0	0.010124199	17.4116344403	17.5201469306	34.9317813709	0.108512490235	17.4116344403	17.5201469306	0.108512490235
94.342	3.504	3.504	17.55	18.08	30	42	12	7	0	0.010124199	13.4614178162	12.685793212	26.1472110282	0.775624604163	13.4614178162	12.685793212	0.775624604163
106.4	2.776	2.773	19.7	20.68	14	42	28	7	0	0.010124199	17.2543844893	14.5100776341	31.7644621234	2.74430685519	17.2543844893	14.5100776341	2.74430685519
118.441	3.295	3.292	14.03	15.43	14	30	16	7	0	0.010124199	12.2882748419	11.8353092253	24.1235840672	0.452965616581	12.2882748419	11.8353092253	0.452965616581
130.466	2.803	2.803	20.17	20.37	30	42	12	7	0	0.010124199	15.4710425842	14.2925667992	29.7636093834	1.17847578502	15.4710425842	14.2925667992	1.17847578502
142.523	2.026	2.026	21.66	22.31	0	14	14	7	0	0.010124199	21.66	19.5403714699	41.2003714699	2.11962853013	21.66	19.5403714699	2.11962853013
154.548	2.523	2.52	21.25	31.88	14	42	28	8	0	0.010124199	18.6119629644	22.3685336062	40.9804965705	3.75657064182	22.3685336062	18.6119629644	3.75657064182
166.589	1.847	1.847	28.11	37.95	0	30	30	8	0	0.010124199	28.11	29.1088778419	57.2188778419	0.998877841867	29.1088778419	28.11	0.998877841867
178.647	1.629	1.629	22.83	23.97	0	14	14	7	0	0.010124199	22.83	20.9942942238	43.8242942238	1.83570577621	22.83	20.9942942238	1.83570577621
190.688	2.22	2.22	21.82	22.04	0	30	30	7	0	0.010124199	21.82	16.9053930866	38.7253930866	4.91460691345	21.82	16.9053930866	4.91460691345
202.729	1.749	1.746	15.06	15.51	0	30	30	7	0	0.010124199	15.06	11.8966718136	26.9566718136	3.16332818637	15.06	11.8966718136	3.16332818637
214.771	2.584	2.585	23.29	23.52	14	30	16	7	0	0.010124199	20.3987114089	18.0406009708	38.4393123797	2.35811043816	20.3987114089	18.0406009708	2.35811043816
226.828	1.783	1.783	23.65	23.89	0	14	14	7	0	0.010124199	23.65	20.9242256573	44.5742256573	2.72577434266	23.65	20.9242256573	2.72577434266
238.87	3.687	3.685	10.47	13.09	30	42	12	8	0	0.010124199	8.03082874847	9.18457041734	17.2153991658	1.15374166888	9.18457041734	8.03082874847	1.15374166888
250.911	3.814	3.811	10.79	14.57	14	42	28	8	0	0.010124199	9.45049790049	10.2230092422	19.6735071427	0.772511341733	10.2230092422	9.45049790049	0.772511341733
262.952	3.53	3.53	16.05	16.85	30	42	12	7	0	0.010124199	12.3108692849	11.8227663508	24.1336356357	0.488102934081	12.3108692849	11.8227663508	0.488102934081
275.01	3.776	3.776	13.33	15.33	14	42	28	7	0	0.010124199	11.6751748854	10.7562616118	22.4314364972	0.91891327365	11.6751748854	10.7562616118	0.91891327365
287.034	4.114	4.111	16.96	19.5	30	42	12	8	0	0.010124199	13.0088687272	13.6821331656	26.6910018929	0.673264438415	13.6821331656	13.0088687272	0.673264438415
299.076	3.184	3.182	9.35	12.62	30	42	12	8	0	0.010124199	7.17175251176	8.85479592566	16.0265484374	1.68304341389	8.85479592566	7.17175251176	1.68304341389
311.117	1.852	1.852	29.1	43.65	30	42	12	8	0	0.010124199	22.3206415072	30.6269288554	52.9475703626	8.30628734818	30.6269288554	22.3206415072	8.30628734818
323.158	2.547	2.546	21.3	26.62	14	30	16	8	0	0.010124199	18.6557558184	20.4184012688	39.0741570872	1.7626454504	20.4184012688	18.6557558184	1.7626454504
335.199	3.052	3.049	10.99	11.32	14	30	16	7	0	0.010124199	9.62566931662	8.68280624954	18.3084755662	0.942863067087	9.62566931662	8.68280624954	0.942863067087
347.24	3.664	3.664	24.79	28.51	14	30	16	8	0	0.010124199	21.7124970299	21.8680924182	43.5805894482	0.155595388278	21.8680924182	21.7124970299	0.155595388278
359.298	2.446	2.446	5.64	6.2	0	14	14	7	0	0.010124199	5.64	5.43031390019	11.0703139002	0.209686099812	5.64	5.43031390019	0.209686099812
371.339	3.543	3.54	22.3	22.97	14	42	28	7	0	0.010124199	19.5316128991	16.1168512213	35.6484641203	3.4147616778	19.5316128991	16.1168512213	3.4147616778
383.381	3.045	3.043	26.68	33.35	14	42	28	8	0	0.010124199	23.3678669124	23.3999559525	46.7678228649	0.0320890400888	23.3999559525	23.3678669124	0.0320890400888
395.422	2.097	2.097	16.69	25.04	14	30	16	8	0	0.010124199	14.6180546765	19.2064901492	33.8245448256	4.58843547268	19.2064901492	14.6180546765	4.58843547268
407.463	2.52	2.519	26.53	39.8	0	14	14	8	0	0.010124199	26.53	34.8591118109	61.3891118109	8.32911181089	34.8591118109	26.53	8.32911181089
419.504	1.793	1.79	16.56	18.22	0	30	30	7	0	0.010124199	16.56	13.9753294935	30.5353294935	2.58467050649	16.56	13.9753294935	2.58467050649
431.53	3.695	3.692	10.22	13.8	0	14	14	8	0	0.010124199	10.22	12.0868277133	22.3068277133	1.86682771332	12.0868277133	10.22	1.86682771332
443.57	1.588	1.588	12.56	16.96	14	30	16	8	0	0.010124199	11.0007649333	13.0088687272	24.0096336605	2.00810379394	13.0088687272	11.0007649333	2.00810379394
455.611	3.002	3.002	21.77	23.95	14	42	28	7	0	0.010124199	19.0674086463	16.8044661188	35.8718747651	2.26294252749	19.0674086463	16.8044661188	2.26294252749
467.652	3.3	3.297	12.55	13.18	0	30	30	7	0	0.010124199	12.55	10.1094864283	22.6594864283	2.44051357165	12.55	10.1094864283	2.44051357165
479.693	2.176	2.176	10.71	13.39	0	14	14	8	0	0.010124199	10.71	11.7277263102	22.4377263102	1.01772631025	11.7277263102	10.71	1.01772631025
491.735	2.014	2.014	28.52	28.81	14	42	28	7	0	0.010124199	24.9794439409	20.2144746924	45.1939186333	4.76496924846	24.9794439409	20.2144746924	4.76496924846
503.776	3.711	3.708	14.07	14.77	14	30	16	7	0	0.010124199	12.3233091251	11.3290678715	23.6523769966	0.99424125358	12.3233091251	11.3290678715	0.99424125358
