onset	duration	response_time	vS	vL	dS	dL	dDiff	choice	no_resp	k	SV_SS	SV_LL	SV_sum	SV_diff	SV_chosen	SV_unchosen	SV_chosen_minus_unchosen_abs
10.04	2.064	2.063	24.42	24.42	14	30	16	7	0	0.017633165	19.5851303178	15.9712757717	35.5564060895	3.61385454612	19.5851303178	15.9712757717	3.61385454612
22.098	1.941	1.941	0.16	20.16	0	14	14	8	0	0.017633165	0.16	16.1685596727	16.3285596727	16.0085596727	16.1685596727	0.16	16.0085596727
34.139	2.844	2.844	29.44	30.32	14	30	16	7	0	0.017633165	23.6112299982	19.8300197133	43.4412497115	3.78121028496	23.6112299982	19.8300197133	3.78121028496
46.164	3.846	3.843	18.51	23.14	14	30	16	8	0	0.017633165	14.8452400566	15.1341245437	29.9793646003	0.288884487073	15.1341245437	14.8452400566	0.288884487073
58.205	1.602	1.602	8.73	10.04	0	14	14	8	0	0.017633165	8.73	8.05219936081	16.7821993608	0.677800639189	8.05219936081	8.73	0.677800639189
70.263	1.928	1.927	26.59	35.9	0	14	14	8	0	0.017633165	26.59	28.7922267981	55.3822267981	2.20222679812	28.7922267981	26.59	2.20222679812
82.304	2.062	2.062	9.99	10.09	14	30	16	7	0	0.017633165	8.01209876638	6.59910616448	14.6112049309	1.41299260191	8.01209876638	6.59910616448	1.41299260191
94.346	1.967	1.964	11.39	12.53	14	30	16	7	0	0.017633165	9.13491541032	8.19492569285	17.3298411032	0.939989717468	9.13491541032	8.19492569285	0.939989717468
106.387	3.99	3.987	20.85	22.94	14	42	28	7	0	0.017633165	16.7219478758	13.1794169703	29.9013648461	3.5425309055	16.7219478758	13.1794169703	3.5425309055
118.428	1.978	1.978	14.13	14.55	0	14	14	7	0	0.017633165	14.13	11.6692729781	25.7992729781	2.46072702193	14.13	11.6692729781	2.46072702193
130.469	2.091	2.088	18.65	21.45	14	30	16	7	0	0.017633165	14.957521721	14.028823313	28.986345034	0.928698408041	14.957521721	14.028823313	0.928698408041
142.511	1.27	1.27	16.36	20.45	14	42	28	7	0	0.017633165	13.1209144963	11.748869967	24.8697844633	1.37204452933	13.1209144963	11.748869967	1.37204452933
154.569	2.628	2.628	8.3	11.2	14	30	16	7	0	0.017633165	6.65669867477	7.32507324501	13.9817719198	0.668374570236	6.65669867477	7.32507324501	0.668374570236
166.627	1.858	1.859	20.51	21.54	14	30	16	7	0	0.017633165	16.4492638337	14.0876855087	30.5369493424	2.36157832498	16.4492638337	14.0876855087	2.36157832498
178.651	3.828	3.825	8.69	11.73	14	42	28	7	0	0.017633165	6.9694833113	6.73908287103	13.7085661823	0.230400440269	6.9694833113	6.73908287103	0.230400440269
190.692	4.609	4.608	29.2	36.5	30	42	12	7	0	0.017633165	19.0975123888	20.9698657112	40.0673781	1.87235332245	19.0975123888	20.9698657112	1.87235332245
202.735	4.189	4.189	16.94	18.63	30	42	12	7	0	0.017633165	11.0791732831	10.7032492658	21.7824225488	0.375924017323	11.0791732831	10.7032492658	0.375924017323
214.775	2.712	2.709	21.65	22.73	30	42	12	7	0	0.017633165	14.1596281924	13.0587684278	27.2183966202	1.10085976453	14.1596281924	13.0587684278	1.10085976453
226.816	1.796	1.796	23.94	24.18	30	42	12	7	0	0.017633165	15.6573440612	13.8918178876	29.5491619488	1.76552617361	15.6573440612	13.8918178876	1.76552617361
238.874	2.25	2.25	26.63	26.9	0	14	14	7	0	0.017633165	26.63	21.5741198014	48.2041198014	5.05588019862	26.63	21.5741198014	5.05588019862
250.916	3.554	3.552	18.28	27.42	14	42	28	8	0	0.017633165	14.6607773223	15.7532525425	30.4140298648	1.09247522024	15.7532525425	14.6607773223	1.09247522024
262.957	3.273	3.27	24.51	36.76	0	30	30	8	0	0.017633165	24.51	24.0419368292	48.5519368292	0.468063170843	24.0419368292	24.51	0.468063170843
274.998	2.365	2.365	18.65	21.45	14	42	28	7	0	0.017633165	14.957521721	12.3233868358	27.2809085568	2.63413488526	14.957521721	12.3233868358	2.63413488526
287.056	2.259	2.259	16.21	16.7	30	42	12	7	0	0.017633165	10.6017354734	9.59443170897	20.1961671823	1.00730376439	10.6017354734	9.59443170897	1.00730376439
299.081	2.66	2.658	13.23	13.89	0	30	30	7	0	0.017633165	13.23	9.08439887261	22.3143988726	4.14560112739	13.23	9.08439887261	4.14560112739
311.106	1.744	1.744	12.84	14.12	0	30	30	7	0	0.017633165	12.84	9.23482448389	22.0748244839	3.60517551611	12.84	9.23482448389	3.60517551611
323.163	1.711	1.711	5.89	6.77	30	42	12	7	0	0.017633165	3.8522036976	3.88947920178	7.74168289938	0.037275504181	3.8522036976	3.88947920178	0.037275504181
335.204	2.87	2.87	27.61	41.42	30	42	12	8	0	0.017633165	18.0576135977	23.7964887057	41.8541023035	5.73887510798	23.7964887057	18.0576135977	5.73887510798
347.246	2.878	2.876	23.31	29.14	0	14	14	7	0	0.017633165	23.31	23.3706264317	46.6806264317	0.0606264316764	23.31	23.3706264317	0.0606264316764
359.287	3.147	3.146	14.67	19.8	0	30	30	7	0	0.017633165	14.67	12.9496830581	27.6196830581	1.72031694186	14.67	12.9496830581	1.72031694186
371.345	2.6	2.6	5.33	5.38	14	42	28	7	0	0.017633165	4.27472336585	3.09090075415	7.36562412	1.1838226117	4.27472336585	3.09090075415	1.1838226117
383.386	2.026	2.023	19.02	25.68	30	42	12	8	0	0.017633165	12.4395440286	14.7535931908	27.1931372194	2.31404916222	14.7535931908	12.4395440286	2.31404916222
395.412	1.397	1.397	18.47	19.39	0	14	14	7	0	0.017633165	18.47	15.5510105185	34.0210105185	2.91898948146	18.47	15.5510105185	2.91898948146
407.469	2.06	2.059	16.74	16.91	0	30	30	7	0	0.017633165	16.74	11.0595525512	27.7995525512	5.68044744883	16.74	11.0595525512	5.68044744883
419.493	2.092	2.091	18.77	28.16	0	14	14	8	0	0.017633165	18.77	22.5846547809	41.3546547809	3.81465478092	22.5846547809	18.77	3.81465478092
431.518	1.685	1.682	13.02	14.97	0	30	30	7	0	0.017633165	13.02	9.79074522123	22.8107452212	3.22925477877	13.02	9.79074522123	3.22925477877
443.559	5.636	5.633	12.06	12.66	14	42	28	7	0	0.017633165	9.67226337564	7.27338355902	16.9456469347	2.39887981662	9.67226337564	7.27338355902	2.39887981662
455.6	1.712	1.712	26.57	29.23	0	14	14	7	0	0.017633165	26.57	23.4428075016	50.0128075016	3.12719249836	26.57	23.4428075016	3.12719249836
467.642	2.566	2.565	29.43	36.79	0	30	30	7	0	0.017633165	29.43	24.0615575611	53.4915575611	5.36844243894	29.43	24.0615575611	5.36844243894
479.683	2.695	2.692	11.72	17.58	14	30	16	8	0	0.017633165	9.39957933354	11.4977488971	20.8973282306	2.09816956354	11.4977488971	9.39957933354	2.09816956354
491.724	2.731	2.731	10.09	10.39	14	42	28	7	0	0.017633165	8.09229995524	5.96923026684	14.0615302221	2.1230696884	8.09229995524	5.96923026684	2.1230696884
503.782	5.009	5.009	23.25	23.95	0	30	30	7	0	0.017633165	23.25	15.6638843052	38.9138843052	7.58611569482	23.25	15.6638843052	7.58611569482
