onset	duration	response_time	vS	vL	dS	dL	dDiff	choice	no_resp	k	SV_SS	SV_LL	SV_sum	SV_diff	SV_chosen	SV_unchosen	SV_chosen_minus_unchosen_abs
10.032	1.968	1.967	18.96	18.96	14	30	16	7	0	0.028654952	13.5315551241	10.1954747837	23.7270299078	3.33608034039	13.5315551241	10.1954747837	3.33608034039
22.074	1.656	1.653	0.1	15.31	14	30	16	8	0	0.028654952	0.0713689616249	8.23273834062	8.30410730225	8.161369379	8.23273834062	0.0713689616249	8.161369379
34.115	2.076	2.076	26.06	32.58	0	14	14	7	0	0.028654952	26.06	23.2520076974	49.3120076974	2.80799230261	26.06	23.2520076974	2.80799230261
46.156	2.019	2.019	16.55	22.34	0	14	14	8	0	0.028654952	16.55	15.943826027	32.493826027	0.606173973	15.943826027	16.55	0.606173973
58.197	1.572	1.569	8.21	9.44	0	30	30	7	0	0.028654952	8.21	5.07622795137	13.2862279514	3.13377204863	8.21	5.07622795137	3.13377204863
70.239	1.911	1.911	17.01	17.52	14	42	28	7	0	0.028654952	12.1398603724	7.95095825711	20.0908186295	4.18890211528	12.1398603724	7.95095825711	4.18890211528
82.297	2.453	2.453	19.43	26.23	0	30	30	7	0	0.028654952	19.43	14.1048155895	33.5348155895	5.32518441054	19.43	14.1048155895	5.32518441054
94.355	2.483	2.483	10.74	11.28	30	42	12	7	0	0.028654952	5.77528476671	5.11911011074	10.8943948775	0.656174655965	5.77528476671	5.11911011074	0.656174655965
106.396	1.772	1.77	29.04	29.33	0	14	14	7	0	0.028654952	29.04	20.9325164446	49.9725164446	8.10748355542	29.04	20.9325164446	8.10748355542
118.437	2.801	2.8	23.16	31.27	14	30	16	7	0	0.028654952	16.5290515123	16.8150050889	33.3440566012	0.285953576595	16.5290515123	16.8150050889	0.285953576595
130.495	1.686	1.686	14.76	15.5	0	14	14	7	0	0.028654952	14.76	11.0621890519	25.8221890519	3.69781094814	14.76	11.0621890519	3.69781094814
142.537	1.66	1.661	12.42	12.79	0	14	14	7	0	0.028654952	12.42	9.12809019182	21.5480901918	3.29190980818	12.42	9.12809019182	3.29190980818
154.561	2.255	2.252	20.64	25.8	0	30	30	7	0	0.028654952	20.64	13.8735891044	34.5135891044	6.76641089562	20.64	13.8735891044	6.76641089562
166.602	2.555	2.554	15.42	16.96	30	42	12	7	0	0.028654952	8.29188930192	7.69681803885	15.9887073408	0.595071263073	8.29188930192	7.69681803885	0.595071263073
178.66	1.768	1.768	18.11	18.65	0	30	30	7	0	0.028654952	18.11	10.02877662	28.13877662	8.08122337997	18.11	10.02877662	8.08122337997
190.702	1.785	1.782	29.24	29.53	30	42	12	7	0	0.028654952	15.723400985	13.4013582952	29.1247592802	2.32204268973	15.723400985	13.4013582952	2.32204268973
202.743	2.085	2.085	18.34	18.52	14	42	28	7	0	0.028654952	13.089067562	8.40478007544	21.4938476374	4.68428748656	13.089067562	8.40478007544	4.68428748656
214.801	2.779	2.779	25.18	28.96	30	42	12	7	0	0.028654952	13.5401927771	13.1426798588	26.6828726359	0.39751291828	13.5401927771	13.1426798588	0.39751291828
226.859	2.385	2.384	11.95	12.31	14	30	16	7	0	0.028654952	8.52859091417	6.61953030523	15.1481212194	1.90906060894	8.52859091417	6.61953030523	1.90906060894
238.9	1.946	1.943	14.23	14.37	0	30	30	7	0	0.028654952	14.23	7.72726648953	21.9572664895	6.50273351047	14.23	7.72726648953	6.50273351047
250.941	3.121	3.118	10.13	11.14	14	30	16	7	0	0.028654952	7.2296758126	5.99037917143	13.220054984	1.23929664117	7.2296758126	5.99037917143	1.23929664117
262.983	2.252	2.252	9.0	9.45	0	30	30	7	0	0.028654952	9.0	5.08160531149	14.0816053115	3.91839468851	9.0	5.08160531149	3.91839468851
275.024	2.571	2.571	13.56	16.95	30	42	12	7	0	0.028654952	7.29170031998	7.69227982067	14.9839801406	0.400579500687	7.29170031998	7.69227982067	0.400579500687
287.065	2.484	2.481	5.71	7.71	14	42	28	7	0	0.028654952	4.07516770878	3.49896621931	7.57413392809	0.576201489469	4.07516770878	3.49896621931	0.576201489469
299.107	3.359	3.36	18.09	27.14	14	30	16	8	0	0.028654952	12.9106451579	14.5941553602	27.5048005181	1.68351020225	14.5941553602	12.9106451579	1.68351020225
311.148	2.382	2.382	22.56	25.94	14	42	28	7	0	0.028654952	16.1008377426	11.7721379674	27.87297571	4.32869977514	16.1008377426	11.7721379674	4.32869977514
323.189	3.719	3.717	12.87	19.3	30	42	12	8	0	0.028654952	6.92066247184	8.75876109374	15.6794235656	1.8380986219	8.75876109374	6.92066247184	1.8380986219
335.23	1.42	1.42	16.17	17.79	0	30	30	7	0	0.028654952	16.17	9.56632364988	25.7363236499	6.60367635012	16.17	9.56632364988	6.60367635012
347.288	2.01	2.009	27.84	28.12	14	30	16	7	0	0.028654952	19.8691189164	15.1211366518	34.9902555681	4.74798226461	19.8691189164	15.1211366518	4.74798226461
359.313	4.0	4.0	16.88	25.32	0	14	14	8	0	0.028654952	16.88	18.0706210834	34.9506210834	1.19062108342	18.0706210834	16.88	1.19062108342
371.354	2.85	2.847	9.81	12.26	14	42	28	7	0	0.028654952	7.0012951354	5.56385549271	12.5651506281	1.4374396427	7.0012951354	5.56385549271	1.4374396427
383.395	3.688	3.686	12.33	18.5	0	30	30	7	0	0.028654952	12.33	9.94811621826	22.2781162183	2.38188378174	12.33	9.94811621826	2.38188378174
395.437	2.588	2.587	9.69	11.14	14	30	16	7	0	0.028654952	6.91565238145	5.99037917143	12.9060315529	0.925273210024	6.91565238145	5.99037917143	0.925273210024
407.478	2.805	2.802	9.19	11.49	14	30	16	7	0	0.028654952	6.55880757333	6.17858677556	12.7373943489	0.38022079777	6.55880757333	6.17858677556	0.38022079777
419.519	2.305	2.305	12.74	13.38	14	30	16	7	0	0.028654952	9.09240571101	7.19490783786	16.2873135489	1.89749787316	9.09240571101	7.19490783786	1.89749787316
443.602	1.624	1.622	12.89	14.82	0	14	14	7	0	0.028654952	12.89	10.5768801128	23.4668801128	2.31311988719	12.89	10.5768801128	2.31311988719
455.628	3.598	3.595	11.12	16.68	14	42	28	7	0	0.028654952	7.93622853269	7.56974792972	15.5059764624	0.36648060297	7.93622853269	7.56974792972	0.36648060297
467.668	2.723	2.723	12.81	13.19	30	42	12	7	0	0.028654952	6.88839831113	5.98590978375	12.8743080949	0.902488527379	6.88839831113	5.98590978375	0.902488527379
479.726	1.505	1.505	15.17	15.93	14	42	28	7	0	0.028654952	10.8266714785	7.22938156597	18.0560530445	3.59728991252	10.8266714785	7.22938156597	3.59728991252
491.767	2.499	2.496	22.45	24.7	0	14	14	7	0	0.028654952	22.45	17.6281335213	40.0781335213	4.82186647865	22.45	17.6281335213	4.82186647865
503.808	3.625	3.622	26.29	35.49	30	42	12	8	0	0.028654952	14.1370797502	16.1061363325	30.2432160826	1.96905658231	16.1061363325	14.1370797502	1.96905658231
