onset	duration	response_time	vS	vL	dS	dL	dDiff	choice	no_resp	k	SV_SS	SV_LL	SV_sum	SV_diff	SV_chosen	SV_unchosen	SV_chosen_minus_unchosen_abs
10.029	2.982	2.979	10.52	10.52	0	30	30	7	0	0.008726792	10.52	8.33727108247	18.8572710825	2.18272891753	10.52	8.33727108247	2.18272891753
22.07	1.922	1.922	0.05	7.97	0	30	30	8	0	0.008726792	0.05	6.31635461286	6.36635461286	6.26635461286	6.31635461286	0.05	6.26635461286
34.128	3.528	3.528	8.21	10.26	30	42	12	8	0	0.008726792	6.50655851588	7.50809390085	14.0146524167	1.00153538497	7.50809390085	6.50655851588	1.00153538497
46.17	2.609	2.606	9.58	10.54	14	42	28	7	0	0.008726792	8.5369922238	7.71299314961	16.2499853734	0.823999074192	8.5369922238	7.71299314961	0.823999074192
58.211	3.229	3.229	19.51	22.44	0	30	30	7	0	0.008726792	19.51	17.7840649326	37.2940649326	1.72593506743	19.51	17.7840649326	1.72593506743
70.269	3.571	3.571	13.38	20.07	14	42	28	7	0	0.008726792	11.9232730641	14.6868854376	26.6101585018	2.76361237349	11.9232730641	14.6868854376	2.76361237349
82.327	2.243	2.24	7.04	7.39	0	30	30	7	0	0.008726792	7.04	5.85669518056	12.8966951806	1.18330481944	7.04	5.85669518056	1.18330481944
94.368	2.16	2.159	15.53	23.3	0	30	30	7	0	0.008726792	15.53	18.4656289184	33.9956289184	2.9356289184	15.53	18.4656289184	2.9356289184
106.41	3.493	3.493	7.84	10.58	0	30	30	7	0	0.008726792	7.84	8.38482205823	16.2248220582	0.544822058226	7.84	8.38482205823	0.544822058226
118.451	2.668	2.668	11.16	16.74	30	42	12	8	0	0.008726792	8.84448149053	12.2500479435	21.094529434	3.40556645297	12.2500479435	8.84448149053	3.40556645297
130.492	2.398	2.395	14.92	15.07	0	30	30	7	0	0.008726792	14.92	11.9432200773	26.8632200773	2.97677992274	14.92	11.9432200773	2.97677992274
142.534	2.897	2.897	28.89	29.18	0	14	14	7	0	0.008726792	28.89	26.0030723477	54.8930723477	2.88692765235	28.89	26.0030723477	2.88692765235
154.592	3.463	3.463	13.71	14.4	30	42	12	7	0	0.008726792	10.8653979601	10.5376756503	21.4030736105	0.327722309819	10.8653979601	10.5376756503	0.327722309819
166.65	2.639	2.636	11.83	13.01	30	42	12	7	0	0.008726792	9.37546738647	9.52049723685	18.8959646233	0.145029850386	9.37546738647	9.52049723685	0.145029850386
178.691	2.526	2.523	20.6	25.75	0	14	14	8	0	0.008726792	20.6	22.946508326	43.546508326	2.34650832598	22.946508326	20.6	2.34650832598
190.732	4.117	4.114	11.75	12.34	14	30	16	7	0	0.008726792	10.4707368089	9.77965068039	20.2503874893	0.691086128555	10.4707368089	9.77965068039	0.691086128555
202.774	3.064	3.065	28.51	31.36	0	30	30	8	0	0.008726792	28.51	24.8533099949	53.3633099949	3.65669000511	24.8533099949	28.51	3.65669000511
214.815	3.45	3.447	22.2	25.53	14	30	16	8	0	0.008726792	19.7830091199	20.232940184	40.0159493039	0.449931064105	20.232940184	19.7830091199	0.449931064105
226.856	2.134	2.134	17.94	20.63	0	14	14	8	0	0.008726792	17.94	18.3839404569	36.3239404569	0.443940456892	18.3839404569	17.94	0.443940456892
238.914	1.732	1.732	20.99	21.62	0	30	30	8	0	0.008726792	20.99	17.1342015972	38.1242015972	3.85579840276	17.1342015972	20.99	3.85579840276
250.956	3.642	3.642	13.51	16.89	14	42	28	7	0	0.008726792	12.0391195139	12.3598153982	24.3989349121	0.320695884246	12.0391195139	12.3598153982	0.320695884246
262.98	4.052	4.049	5.19	7.01	14	42	28	7	0	0.008726792	4.62494672667	5.12979904922	9.75474577589	0.504852322545	4.62494672667	5.12979904922	0.504852322545
275.021	2.28	2.28	20.86	26.08	14	30	16	8	0	0.008726792	18.5888995604	20.6688241284	39.2577236888	2.07992456802	20.6688241284	18.5888995604	2.07992456802
287.079	2.166	2.166	8.55	8.64	14	42	28	7	0	0.008726792	7.61913189076	6.32260539019	13.941737281	1.29652650057	7.61913189076	6.32260539019	1.29652650057
299.121	2.119	2.116	13.44	13.57	14	30	16	7	0	0.008726792	11.9767406564	10.7544456834	22.7311863397	1.22229497298	11.9767406564	10.7544456834	1.22229497298
311.162	3.31	3.307	9.06	9.33	14	42	28	7	0	0.008726792	8.0736064246	6.82753568177	14.9011421064	1.24607074283	8.0736064246	6.82753568177	1.24607074283
323.188	3.785	3.785	25.88	27.17	0	14	14	8	0	0.008726792	25.88	24.2119080084	50.0919080084	1.66809199158	24.2119080084	25.88	1.66809199158
335.245	3.84	3.839	15.17	20.48	30	42	12	8	0	0.008726792	12.0224717035	14.9869164805	27.009388184	2.96444477693	14.9869164805	12.0224717035	2.96444477693
347.286	4.433	4.43	24.64	25.38	14	30	16	8	0	0.008726792	21.95735787	20.1140627446	42.0714206146	1.8432951254	20.1140627446	21.95735787	1.8432951254
359.327	2.125	2.125	15.96	16.44	0	14	14	7	0	0.008726792	15.96	14.6501202672	30.6101202672	1.30987973285	15.96	14.6501202672	1.30987973285
371.369	3.099	3.1	16.26	21.95	14	30	16	8	0	0.008726792	14.4897174905	17.3957319639	31.8854494544	2.9060144734	17.3957319639	14.4897174905	2.9060144734
383.41	2.517	2.514	10.21	11.23	0	14	14	7	0	0.008726792	10.21	10.0073510097	20.2173510097	0.202648990262	10.21	10.0073510097	0.202648990262
395.451	2.321	2.321	22.92	25.21	14	30	16	8	0	0.008726792	20.4246202265	19.9793349799	40.4039552064	0.445285246515	19.9793349799	20.4246202265	0.445285246515
407.509	3.663	3.663	11.01	13.76	0	30	30	7	0	0.008726792	11.01	10.9050237733	21.9150237733	0.104976226731	11.01	10.9050237733	0.104976226731
419.567	2.181	2.18	23.61	24.32	30	42	12	7	0	0.008726792	18.7113089598	17.7969633205	36.5082722803	0.914345639262	18.7113089598	17.7969633205	0.914345639262
431.608	1.958	1.955	8.34	9.59	14	42	28	7	0	0.008726792	7.43199531801	7.0177992699	14.4497945879	0.414196048106	7.43199531801	7.0177992699	0.414196048106
443.65	4.956	4.953	24.54	24.79	30	42	12	7	0	0.008726792	19.448349084	18.1409013452	37.5892504293	1.30744773877	19.448349084	18.1409013452	1.30744773877
455.691	2.216	2.216	19.66	20.64	14	42	28	8	0	0.008726792	17.5195477161	15.1040017655	32.6235494815	2.41554595061	15.1040017655	17.5195477161	2.41554595061
467.732	4.97	4.967	10.09	15.14	14	30	16	8	0	0.008726792	8.99146675764	11.9986962156	20.9901629733	3.00722945801	11.9986962156	8.99146675764	3.00722945801
479.774	5.456	5.454	13.12	15.09	30	42	12	7	0	0.008726792	10.3978133652	11.0426059419	21.4404193071	0.644792576688	10.3978133652	11.0426059419	0.644792576688
491.815	3.1	3.1	5.58	7.53	0	14	14	7	0	0.008726792	5.58	6.71018282309	12.2901828231	1.13018282309	5.58	6.71018282309	1.13018282309
503.873	2.346	2.345	15.07	22.6	0	14	14	8	0	0.008726792	15.07	20.1394597346	35.2094597346	5.06945973465	20.1394597346	15.07	5.06945973465
