onset	duration	response_time	vS	vL	dS	dL	dDiff	choice	no_resp	k	SV_SS	SV_LL	SV_sum	SV_diff	SV_chosen	SV_unchosen	SV_chosen_minus_unchosen_abs
10.044	3.924	3.923	10.0	10.0	14	30	16	7	0	0.105365571	4.04021142598	2.40328742996	6.44349885594	1.63692399602	4.04021142598	2.40328742996	1.63692399602
22.086	3.3	3.297	0.1	19.26	14	30	16	8	0	0.105365571	0.0404021142598	4.6287315901	4.66913370436	4.58832947584	4.6287315901	0.0404021142598	4.58832947584
34.127	4.283	4.281	26.84	36.23	0	14	14	7	0	0.105365571	26.84	14.6376859963	41.4776859963	12.2023140037	26.84	14.6376859963	12.2023140037
46.168	4.095	4.094	14.74	22.11	0	14	14	7	0	0.105365571	14.74	8.93290746284	23.6729074628	5.80709253716	14.74	8.93290746284	5.80709253716
58.209	4.125	4.125	14.82	16.3	0	14	14	7	0	0.105365571	14.82	6.58554462434	21.4055446243	8.23445537566	14.82	6.58554462434	8.23445537566
70.234	3.383	3.38	12.32	15.4	14	42	28	7	0	0.105365571	4.9775404768	2.83852446331	7.81606494011	2.1390160135	4.9775404768	2.83852446331	2.1390160135
82.275	1.955	1.955	9.37	11.71	0	14	14	7	0	0.105365571	9.37	4.73108757982	14.1010875798	4.63891242018	9.37	4.73108757982	4.63891242018
94.333	3.577	3.576	21.11	21.74	30	42	12	7	0	0.105365571	5.07333976464	4.00711180729	9.08045157193	1.06622795735	5.07333976464	4.00711180729	1.06622795735
106.374	3.159	3.159	12.58	13.84	14	30	16	7	0	0.105365571	5.08258597388	3.32614980306	8.40873577694	1.75643617082	5.08258597388	3.32614980306	1.75643617082
118.398	3.338	3.335	18.39	21.15	30	42	12	7	0	0.105365571	4.41964558369	3.89836314279	8.31800872648	0.521282440907	4.41964558369	3.89836314279	0.521282440907
130.44	3.061	3.062	20.83	21.45	14	42	28	7	0	0.105365571	8.41576040031	3.95365907389	12.3694194742	4.46210132642	8.41576040031	3.95365907389	4.46210132642
142.481	1.948	1.947	18.0	18.9	14	42	28	7	0	0.105365571	7.27238056676	3.48364365951	10.7560242263	3.78873690725	7.27238056676	3.48364365951	3.78873690725
154.522	2.157	2.154	17.08	19.64	14	42	28	7	0	0.105365571	6.90068111557	3.62004028957	10.5207214051	3.280640826	6.90068111557	3.62004028957	3.280640826
166.563	2.883	2.881	16.66	17.49	14	30	16	7	0	0.105365571	6.73099223568	4.203349715	10.9343419507	2.52764252068	6.73099223568	4.203349715	2.52764252068
178.604	3.144	3.143	25.81	34.84	0	30	30	7	0	0.105365571	25.81	8.37305340598	34.183053406	17.436946594	25.81	8.37305340598	17.436946594
190.646	5.253	5.254	13.73	13.87	30	42	12	7	0	0.105365571	3.29971364133	2.55651521468	5.85622885601	0.743198426655	3.29971364133	2.55651521468	0.743198426655
202.704	1.87	1.868	8.27	9.51	0	30	30	7	0	0.105365571	8.27	2.28552634589	10.5555263459	5.98447365411	8.27	2.28552634589	5.98447365411
214.745	2.146	2.146	18.75	18.94	0	30	30	7	0	0.105365571	18.75	4.55182639234	23.3018263923	14.1981736077	18.75	4.55182639234	14.1981736077
226.803	4.255	4.256	20.89	31.34	14	42	28	7	0	0.105365571	8.44000166887	5.7765816026	14.2165832715	2.66342006627	8.44000166887	5.7765816026	2.66342006627
238.86	1.854	1.854	7.04	8.1	14	30	16	7	0	0.105365571	2.84430884389	1.94666281827	4.79097166215	0.897646025621	2.84430884389	1.94666281827	0.897646025621
250.902	1.871	1.868	8.63	8.72	14	30	16	7	0	0.105365571	3.48670246062	2.09566663892	5.58236909954	1.39103582169	3.48670246062	2.09566663892	1.39103582169
262.943	1.931	1.93	13.85	13.99	14	42	28	7	0	0.105365571	5.59569282498	2.57863358712	8.1743264121	3.01705923786	5.59569282498	2.57863358712	3.01705923786
275.001	4.608	4.608	13.28	17.93	30	42	12	8	0	0.105365571	3.19156570699	3.30485348228	6.49641918926	0.113287775292	3.30485348228	3.19156570699	0.113287775292
287.042	3.858	3.855	15.57	21.02	14	42	28	7	0	0.105365571	6.29060919025	3.87440157264	10.1650107629	2.4162076176	6.29060919025	3.87440157264	2.4162076176
299.083	2.334	2.334	11.14	11.7	0	14	14	7	0	0.105365571	11.14	4.72704736839	15.8670473684	6.41295263161	11.14	4.72704736839	6.41295263161
311.141	3.251	3.251	12.2	12.81	30	42	12	7	0	0.105365571	2.93201066455	2.36113625811	5.29314692266	0.570874406436	2.93201066455	2.36113625811	0.570874406436
323.199	1.497	1.497	8.5	9.78	0	14	14	7	0	0.105365571	8.5	3.95132677461	12.4513267746	4.54867322539	8.5	3.95132677461	4.54867322539
335.24	1.779	1.776	26.41	29.05	14	42	28	7	0	0.105365571	10.670198376	5.35448932851	16.0246877045	5.3157090475	10.670198376	5.35448932851	5.3157090475
347.281	1.919	1.918	20.52	30.78	14	30	16	7	0	0.105365571	8.2905138461	7.39731870941	15.6878325555	0.893195136692	8.2905138461	7.39731870941	0.893195136692
359.339	2.1	2.1	8.48	10.6	14	30	16	7	0	0.105365571	3.42609928923	2.54748467576	5.97358396498	0.878614613472	3.42609928923	2.54748467576	0.878614613472
371.38	1.771	1.771	24.86	31.08	0	30	30	7	0	0.105365571	24.86	7.46941733231	32.3294173323	17.3905826677	24.86	7.46941733231	17.3905826677
383.422	3.499	3.498	22.41	23.53	0	30	30	7	0	0.105365571	22.41	5.65493532269	28.0649353227	16.7550646773	22.41	5.65493532269	16.7550646773
395.463	2.496	2.495	19.03	20.93	30	42	12	7	0	0.105365571	4.57345597921	3.85781279331	8.43126877252	0.7156431859	4.57345597921	3.85781279331	0.7156431859
407.521	8.472	8.469	26.2	39.3	0	30	30	7	0	0.105365571	26.2	9.44491959974	35.6449195997	16.7550804003	26.2	9.44491959974	16.7550804003
419.562	2.327	2.324	26.86	27.13	0	14	14	7	0	0.105365571	26.86	10.9610935987	37.8210935987	15.8989064013	26.86	10.9610935987	15.8989064013
431.587	3.725	3.722	8.77	13.16	30	42	12	7	0	0.105365571	2.10768307607	2.42564817773	4.53333125381	0.31796510166	2.10768307607	2.42564817773	0.31796510166
443.628	1.889	1.89	21.66	23.83	0	30	30	7	0	0.105365571	21.66	5.72703394559	27.3870339456	15.9329660544	21.66	5.72703394559	15.9329660544
455.653	1.712	1.712	28.94	29.81	0	30	30	7	0	0.105365571	28.94	7.16419982871	36.1041998287	21.7758001713	28.94	7.16419982871	21.7758001713
467.693	2.226	2.224	20.33	25.41	30	42	12	7	0	0.105365571	4.88588334511	4.68356536445	9.56944870956	0.202317980651	4.88588334511	4.68356536445	0.202317980651
479.718	1.719	1.718	20.72	21.34	14	30	16	7	0	0.105365571	8.37131807462	5.12861537553	13.4999334502	3.24270269909	8.37131807462	5.12861537553	3.24270269909
491.776	7.727	7.724	6.93	9.36	14	30	16	8	0	0.105365571	2.7998665182	2.24947703444	5.04934355264	0.550389483761	2.24947703444	2.7998665182	0.550389483761
503.817	1.859	1.859	24.4	25.13	0	14	14	7	0	0.105365571	24.4	10.1530513135	34.5530513135	14.2469486865	24.4	10.1530513135	14.2469486865
