onset	duration	response_time	vS	vL	dS	dL	dDiff	choice	no_resp	k	SV_SS	SV_LL	SV_sum	SV_diff	SV_chosen	SV_unchosen	SV_chosen_minus_unchosen_abs
10.043	2.077	2.077	8.19	8.19	0	30	30	7	0	0.000727802	8.19	8.01500000891	16.2050000089	0.174999991094	8.19	8.01500000891	0.174999991094
22.085	1.499	1.5	0.07	11.95	14	30	16	8	0	0.000727802	0.0692939481631	11.6946581327	11.7639520808	11.6253641845	11.6946581327	0.0692939481631	11.6253641845
34.126	1.716	1.714	28.4	32.66	30	42	12	8	0	0.000727802	27.793162424	31.6912712353	59.4844336594	3.89810881128	31.6912712353	27.793162424	3.89810881128
46.167	1.329	1.329	10.95	16.42	30	42	12	8	0	0.000727802	10.7160256529	15.9329661263	26.6489917792	5.21694047334	15.9329661263	10.7160256529	5.21694047334
58.225	1.823	1.822	6.98	7.33	14	30	16	8	0	0.000727802	6.90959654541	7.17337607635	14.0829726218	0.263779530936	7.17337607635	6.90959654541	0.263779530936
70.267	2.82	2.821	21.38	24.59	0	30	30	8	0	0.000727802	21.38	24.0645726763	45.4445726763	2.68457267631	24.0645726763	21.38	2.68457267631
82.308	1.446	1.443	6.61	8.92	14	30	16	8	0	0.000727802	6.54332853369	8.7294017191	15.2727302528	2.18607318541	8.7294017191	6.54332853369	2.18607318541
94.349	1.626	1.626	13.06	15.02	14	42	28	8	0	0.000727802	12.9282709002	14.5744915479	27.5027624481	1.64622064775	14.5744915479	12.9282709002	1.64622064775
106.391	2.56	2.561	14.08	21.12	14	30	16	8	0	0.000727802	13.9379827162	20.6687179717	34.6067006879	6.73073525544	20.6687179717	13.9379827162	6.73073525544
118.415	1.538	1.536	19.66	24.58	30	42	12	8	0	0.000727802	19.2399145513	23.8509322402	43.0908467915	4.61101768888	23.8509322402	19.2399145513	4.61101768888
130.457	1.886	1.886	29.29	30.17	0	14	14	8	0	0.000727802	29.29	29.8656916583	59.1556916583	0.575691658316	29.8656916583	29.29	0.575691658316
142.515	1.708	1.708	27.42	28.24	30	42	12	8	0	0.000727802	26.8341025939	27.4023729236	54.2364755175	0.568270329702	27.4023729236	26.8341025939	0.568270329702
154.539	1.291	1.291	12.37	18.56	14	42	28	8	0	0.000727802	12.245230554	18.0094915532	30.2547221072	5.76426099923	18.0094915532	12.245230554	5.76426099923
166.564	1.973	1.97	17.75	17.93	0	30	30	7	0	0.000727802	17.75	17.5468803614	35.2968803614	0.203119638623	17.75	17.5468803614	0.203119638623
178.605	2.737	2.737	24.37	36.56	0	30	30	8	0	0.000727802	24.37	35.7788034586	60.1488034586	11.4088034586	35.7788034586	24.37	11.4088034586
190.663	2.495	2.495	6.14	7.68	0	30	30	8	0	0.000727802	6.14	7.51589744425	13.6558974442	1.37589744425	7.51589744425	6.14	1.37589744425
202.705	1.637	1.638	14.51	19.59	14	42	28	8	0	0.000727802	14.3636455407	19.0089407073	33.372586248	4.64529516661	19.0089407073	14.3636455407	4.64529516661
214.746	1.742	1.74	27.98	28.82	0	30	30	8	0	0.000727802	27.98	28.2041880655	56.1841880655	0.224188065526	28.2041880655	27.98	0.224188065526
226.771	2.003	2.002	26.49	29.14	0	14	14	8	0	0.000727802	26.49	28.8460807068	55.3360807068	2.35608070677	28.8460807068	26.49	2.35608070677
238.829	2.88	2.881	19.89	26.85	0	14	14	8	0	0.000727802	19.89	26.5791786883	46.4691786883	6.68917868829	26.5791786883	19.89	6.68917868829
250.87	2.17	2.167	18.64	18.83	30	42	12	7	0	0.000727802	18.241709422	18.271483079	36.513192501	0.0297736570509	18.241709422	18.271483079	0.0297736570509
262.911	2.641	2.638	11.38	11.95	14	42	28	8	0	0.000727802	11.2652161442	11.5955508653	22.8607670096	0.330334721105	11.5955508653	11.2652161442	0.330334721105
274.953	2.004	2.005	17.65	19.42	0	30	30	8	0	0.000727802	17.65	19.0050427562	36.6550427562	1.35504275616	19.0050427562	17.65	1.35504275616
287.011	4.434	4.435	28.02	37.83	0	30	30	8	0	0.000727802	28.02	37.0216667078	65.0416667078	9.0016667078	37.0216667078	28.02	9.0016667078
299.069	3.586	3.584	15.57	17.13	14	42	28	8	0	0.000727802	15.4129538986	16.6219068053	32.0348607039	1.20895290672	16.6219068053	15.4129538986	1.20895290672
311.11	1.455	1.454	17.21	21.51	14	30	16	8	0	0.000727802	17.0364121127	21.0503846388	38.0867967515	4.01397252609	21.0503846388	17.0364121127	4.01397252609
323.168	2.277	2.276	13.82	14.51	30	42	12	8	0	0.000727802	13.5247008697	14.0796186658	27.6043195355	0.554917796056	14.0796186658	13.5247008697	0.554917796056
335.193	1.763	1.764	7.22	7.58	0	30	30	8	0	0.000727802	7.22	7.41803419628	14.6380341963	0.198034196276	7.41803419628	7.22	0.198034196276
347.234	1.565	1.562	25.3	31.62	14	42	28	8	0	0.000727802	25.0448126933	30.6821186914	55.7269313846	5.63730599814	30.6821186914	25.0448126933	5.63730599814
359.275	2.289	2.289	22.2	22.42	14	42	28	7	0	0.000727802	21.9760807032	21.7550000336	43.7310807367	0.221080669615	21.9760807032	21.7550000336	0.221080669615
371.333	1.847	1.847	19.14	25.84	30	42	12	8	0	0.000727802	18.7310256618	25.0735593607	43.8045850225	6.34253369887	25.0735593607	18.7310256618	6.34253369887
383.375	2.575	2.574	16.79	17.63	0	14	14	8	0	0.000727802	16.79	17.4521758017	34.2421758017	0.662175801661	17.4521758017	16.79	0.662175801661
395.4	2.196	2.195	12.64	14.54	0	14	14	8	0	0.000727802	12.64	14.393342947	27.033342947	1.75334294703	14.393342947	12.64	1.75334294703
407.457	2.666	2.666	10.82	11.14	14	30	16	8	0	0.000727802	10.7108645589	10.9019658241	21.612830383	0.191101265147	10.9019658241	10.7108645589	0.191101265147
419.515	2.2	2.2	14.55	14.7	0	14	14	7	0	0.000727802	14.55	14.5517291143	29.1017291143	0.00172911426056	14.55	14.5517291143	0.00172911426056
431.557	1.737	1.735	18.58	19.14	14	42	28	8	0	0.000727802	18.3925936696	18.5722881642	36.9648818338	0.179694494649	18.5722881642	18.3925936696	0.179694494649
443.598	2.293	2.293	21.77	27.21	0	14	14	8	0	0.000727802	21.77	26.9355475646	48.7055475646	5.16554756456	26.9355475646	21.77	5.16554756456
455.639	2.54	2.54	22.72	22.95	14	30	16	8	0	0.000727802	22.4908357467	22.4596154096	44.9504511562	0.0312203370961	22.4596154096	22.4908357467	0.0312203370961
467.682	2.761	2.76	19.99	21.99	14	30	16	8	0	0.000727802	19.7883717683	21.520128229	41.3084999973	1.73175646074	21.520128229	19.7883717683	1.73175646074
479.722	1.691	1.688	17.26	25.89	0	14	14	8	0	0.000727802	17.26	25.6288616849	42.8888616849	8.36886168491	25.6288616849	17.26	8.36886168491
491.763	1.912	1.911	9.16	10.08	30	42	12	8	0	0.000727802	8.96427351423	9.78101696424	18.7452904785	0.816743450005	9.78101696424	8.96427351423	0.816743450005
503.821	2.917	2.917	9.84	11.32	14	30	16	8	0	0.000727802	9.74074928465	11.0781196704	20.8188689551	1.33737038578	11.0781196704	9.74074928465	1.33737038578
