onset	duration	response_time	vS	vL	dS	dL	dDiff	choice	no_resp	k	SV_SS	SV_LL	SV_sum	SV_diff	SV_chosen	SV_unchosen	SV_chosen_minus_unchosen_abs
10.03	1.906	1.906	27.24	27.24	0	30	30	7	0	0.001269505	27.24	26.240621976	53.480621976	0.999378024047	27.24	26.240621976	0.999378024047
22.072	1.69	1.687	0.22	24.6	0	30	30	8	0	0.001269505	0.22	23.6974779959	23.9174779959	23.4774779959	23.6974779959	0.22	23.4774779959
34.113	2.055	2.054	10.39	14.03	14	30	16	8	0	0.001269505	10.208562504	13.5152689546	23.7238314586	3.30670645056	13.5152689546	10.208562504	3.30670645056
46.171	1.964	1.964	13.54	20.31	0	30	30	8	0	0.001269505	13.54	19.5648690283	33.1048690283	6.02486902833	19.5648690283	13.54	6.02486902833
58.212	1.603	1.603	14.83	15.27	0	30	30	7	0	0.001269505	14.83	14.7097759755	29.5397759755	0.120224024494	14.83	14.7097759755	0.120224024494
70.254	2.54	2.537	7.76	9.7	0	30	30	8	0	0.001269505	7.76	9.34412750245	17.1041275025	1.58412750245	9.34412750245	7.76	1.58412750245
82.295	1.592	1.592	14.07	18.99	0	14	14	8	0	0.001269505	14.07	18.6583832484	32.7283832484	4.58838324844	18.6583832484	14.07	4.58838324844
94.32	1.695	1.695	17.52	18.4	14	30	16	8	0	0.001269505	17.2140534235	17.7249428912	34.9389963148	0.510889467725	17.7249428912	17.2140534235	0.510889467725
106.361	1.512	1.509	20.48	30.72	0	14	14	8	0	0.001269505	20.48	30.1835457289	50.6635457289	9.70354572891	30.1835457289	20.48	9.70354572891
118.403	1.755	1.756	6.18	7.11	0	30	30	8	0	0.001269505	6.18	6.84914912808	13.0291491281	0.669149128085	6.84914912808	6.18	0.669149128085
130.445	1.745	1.745	15.17	17.45	14	30	16	8	0	0.001269505	14.9050907782	16.8097963833	31.7148871615	1.90470560503	16.8097963833	14.9050907782	1.90470560503
142.485	1.881	1.881	20.75	25.94	14	42	28	8	0	0.001269505	20.3876488892	24.6269124817	45.0145613709	4.23926359258	24.6269124817	20.3876488892	4.23926359258
154.527	2.098	2.096	25.33	26.09	14	42	28	7	0	0.001269505	24.8876697042	24.7693194545	49.6569891587	0.118350249759	24.8876697042	24.7693194545	0.118350249759
166.568	2.198	2.198	13.65	13.79	0	14	14	7	0	0.001269505	13.65	13.54918931	27.19918931	0.100810690049	13.65	13.54918931	0.100810690049
178.626	2.188	2.188	6.23	7.16	30	42	12	8	0	0.001269505	6.00143446807	6.79755949766	12.7989939657	0.796125029588	6.79755949766	6.00143446807	0.796125029588
190.667	2.307	2.307	10.43	13.04	30	42	12	8	0	0.001269505	10.0473453454	12.3799128281	22.4272581736	2.33256748272	12.3799128281	10.0473453454	2.33256748272
202.693	2.403	2.4	25.53	25.79	14	30	16	7	0	0.001269505	25.0841771634	24.8438194112	49.9279965745	0.240357752229	25.0841771634	24.8438194112	0.240357752229
214.733	2.704	2.704	5.62	5.9	0	14	14	8	0	0.001269505	5.62	5.79697004559	11.4169700456	0.176970045592	5.79697004559	5.62	0.176970045592
226.791	1.702	1.702	14.9	22.35	14	30	16	8	0	0.001269505	14.6398057084	21.5300257402	36.1698314485	6.89022003182	21.5300257402	14.6398057084	6.89022003182
238.833	1.703	1.7	15.45	19.31	14	30	16	8	0	0.001269505	15.1802012211	18.6015569147	33.7817581358	3.42135569359	18.6015569147	15.1802012211	3.42135569359
250.874	1.827	1.827	20.82	22.9	14	30	16	8	0	0.001269505	20.4564264999	22.0598474027	42.5162739026	1.60342090282	22.0598474027	20.4564264999	1.60342090282
262.915	1.962	1.962	18.45	19.37	0	30	30	8	0	0.001269505	18.45	18.6593556415	37.1093556415	0.20935564149	18.6593556415	18.45	0.20935564149
274.957	1.88	1.879	23.69	29.61	0	14	14	8	0	0.001269505	23.69	29.0929293305	52.7829293305	5.4029293305	29.0929293305	23.69	5.4029293305
286.998	2.353	2.35	7.44	8.18	0	30	30	8	0	0.001269505	7.44	7.8798930897	15.3198930897	0.439893089695	7.8798930897	7.44	0.439893089695
299.039	1.725	1.725	29.52	32.47	30	42	12	8	0	0.001269505	28.4369735951	30.826362694	59.2633362891	2.3893890989	30.826362694	28.4369735951	2.3893890989
311.081	1.715	1.715	14.51	16.69	0	14	14	8	0	0.001269505	14.51	16.398547468	30.908547468	1.88854746795	16.398547468	14.51	1.88854746795
323.122	2.637	2.634	22.42	33.63	14	42	28	8	0	0.001269505	22.0284861732	31.927643283	53.9561294562	9.89915710974	31.927643283	22.0284861732	9.89915710974
335.163	2.172	2.169	17.85	18.39	0	14	14	8	0	0.001269505	17.85	18.0688608709	35.9188608709	0.218860870921	18.0688608709	17.85	0.218860870921
347.205	1.743	1.743	21.06	21.27	14	42	28	7	0	0.001269505	20.6922354509	20.1933087312	40.885544182	0.498926719707	20.6922354509	20.1933087312	0.498926719707
359.246	1.934	1.933	5.33	7.2	0	30	30	8	0	0.001269505	5.33	6.93584721831	12.2658472183	1.60584721831	6.93584721831	5.33	1.60584721831
371.287	2.791	2.788	28.61	31.47	14	42	28	8	0	0.001269505	28.1103920346	29.8769828759	57.9873749105	1.76659084123	29.8769828759	28.1103920346	1.76659084123
383.329	2.613	2.61	14.78	15.22	14	30	16	8	0	0.001269505	14.5219012329	14.6616103698	29.1835116027	0.139709136968	14.6616103698	14.5219012329	0.139709136968
395.37	3.185	3.185	22.77	34.16	30	42	12	8	0	0.001269505	21.9346168279	32.4308145866	54.3654314145	10.4961977587	32.4308145866	21.9346168279	10.4961977587
407.428	1.639	1.639	21.34	28.81	14	42	28	8	0	0.001269505	20.9673458937	27.3516325597	48.3189784534	6.38428666599	27.3516325597	20.9673458937	6.38428666599
419.454	3.472	3.469	9.84	9.94	30	42	12	8	0	0.001269505	9.47899119836	9.436835392	18.9158265904	0.0421558063631	9.436835392	9.47899119836	0.0421558063631
431.494	2.789	2.789	11.7	11.82	0	30	30	7	0	0.001269505	11.7	11.3863491834	23.0863491834	0.313650816602	11.7	11.3863491834	0.313650816602
443.552	1.651	1.651	13.67	14.08	30	42	12	8	0	0.001269505	13.1684765937	13.367267839	26.5357444326	0.198791245309	13.367267839	13.1684765937	0.198791245309
455.593	1.794	1.793	13.51	18.24	30	42	12	8	0	0.001269505	13.0143466555	17.3166878823	30.3310345378	4.30234122682	17.3166878823	13.0143466555	4.30234122682
467.618	1.728	1.728	13.95	14.65	30	42	12	8	0	0.001269505	13.4382039855	13.9084143353	27.3466183208	0.470210349807	13.9084143353	13.4382039855	0.470210349807
479.676	1.806	1.806	21.39	22.46	14	42	28	8	0	0.001269505	21.0164727585	21.3230707147	42.3395434732	0.306597956207	21.3230707147	21.0164727585	0.306597956207
491.702	3.148	3.148	28.53	31.38	0	14	14	8	0	0.001269505	28.53	30.8320203442	59.3620203442	2.30202034418	30.8320203442	28.53	2.30202034418
503.742	1.647	1.644	17.75	20.41	14	42	28	8	0	0.001269505	17.4400370016	19.3768420876	36.8168790892	1.93680508603	19.3768420876	17.4400370016	1.93680508603
